Folder: mmcpd-p19638/crystal_redox_state

Note: README.md
# mmcpd-scripts
misc code for PL mmCPD project

File: swissfelxtalspectrapretravel.tsv
7/8/2000 7:16 AM
Wavelength (nm)	10mm Absorbance
//WLCalib: Shift 	0.04333
//WLCalib: 261S 	-0.46000
//WLCalib: 362S 	-0.29000
//WLCalib: 484S 	-0.24000
//WLCalib: 529S 	-0.30000
//WLCalib: 823S 	-0.76000
//QSpecEnd:
190.0	0.221
192.5	0.256
195.0	0.222
197.5	0.166
200.0	0.112
202.5	0.146
205.0	0.135
207.5	0.205
210.0	0.153
212.5	0.290
215.0	0.581
217.5	0.963
220.0	1.331
222.5	1.620
225.0	1.951
227.5	2.392
230.0	2.623
232.5	2.452
235.0	2.359
237.5	2.281
240.0	2.288
242.5	2.498
245.0	2.436
247.5	2.632
250.0	2.530
252.5	2.513
255.0	2.367
257.5	2.389
260.0	2.577
262.5	2.490
265.0	2.384
267.5	2.465
270.0	2.520
272.5	2.635
275.0	2.520
277.5	2.561
280.0	2.293
282.5	2.179
285.0	1.947
287.5	1.682
290.0	1.466
292.5	1.212
295.0	0.860
297.5	0.601
300.0	0.443
302.5	0.337
305.0	0.262
307.5	0.211
310.0	0.179
312.5	0.160
315.0	0.148
317.5	0.137
320.0	0.130
322.5	0.128
325.0	0.123
327.5	0.121
330.0	0.120
332.5	0.119
335.0	0.121
337.5	0.121
340.0	0.122
342.5	0.123
345.0	0.125
347.5	0.127
350.0	0.128
352.5	0.130
355.0	0.131
357.5	0.132
360.0	0.133
362.5	0.133
365.0	0.134
367.5	0.134
370.0	0.131
372.5	0.130
375.0	0.127
377.5	0.126
380.0	0.123
382.5	0.122
385.0	0.120
387.5	0.116
390.0	0.113
392.5	0.109
395.0	0.107
397.5	0.104
400.0	0.102
402.5	0.099
405.0	0.098
407.5	0.096
410.0	0.093
412.5	0.091
415.0	0.089
417.5	0.088
420.0	0.086
422.5	0.085
425.0	0.084
427.5	0.082
430.0	0.079
432.5	0.078
435.0	0.078
437.5	0.077
440.0	0.076
442.5	0.073
445.0	0.073
447.5	0.073
450.0	0.071
452.5	0.070
455.0	0.069
457.5	0.069
460.0	0.067
462.5	0.067
465.0	0.066
467.5	0.064
470.0	0.064
472.5	0.064
475.0	0.063
477.5	0.062
480.0	0.060
482.5	0.062
485.0	0.063
487.5	0.061
490.0	0.060
492.5	0.060
495.0	0.060
497.5	0.058
500.0	0.059
502.5	0.058
505.0	0.059
507.5	0.058
510.0	0.056
512.5	0.057
515.0	0.056
517.5	0.057
520.0	0.057
522.5	0.057
525.0	0.056
527.5	0.057
530.0	0.056
532.5	0.056
535.0	0.056
537.5	0.055
540.0	0.056
542.5	0.055
545.0	0.054
547.5	0.055
550.0	0.054
552.5	0.055
555.0	0.054
557.5	0.053
560.0	0.053
562.5	0.052
565.0	0.054
567.5	0.053
570.0	0.052
572.5	0.053
575.0	0.052
577.5	0.051
580.0	0.052
582.5	0.051
585.0	0.050
587.5	0.052
590.0	0.051
592.5	0.049
595.0	0.049
597.5	0.050
600.0	0.050
602.5	0.050
605.0	0.050
607.5	0.049
610.0	0.051
612.5	0.050
615.0	0.050
617.5	0.049
620.0	0.049
622.5	0.049
625.0	0.049
627.5	0.049
630.0	0.047
632.5	0.050
635.0	0.049
637.5	0.046
640.0	0.050
642.5	0.050
645.0	0.048
647.5	0.047
650.0	0.047
652.5	0.047
655.0	0.048
657.5	0.046
660.0	0.043
662.5	0.046
665.0	0.048
667.5	0.046
670.0	0.046
672.5	0.047
675.0	0.045
677.5	0.048
680.0	0.046
682.5	0.046
685.0	0.045
687.5	0.044
690.0	0.042
692.5	0.043
695.0	0.043
697.5	0.043
700.0	0.042
702.5	0.042
705.0	0.046
707.5	0.045
710.0	0.045
712.5	0.043
715.0	0.041
717.5	0.042
720.0	0.042
722.5	0.041
725.0	0.042
727.5	0.044
730.0	0.044
732.5	0.045
735.0	0.043
737.5	0.044
740.0	0.042
742.5	0.041
745.0	0.042
747.5	0.043
750.0	0.040
752.5	0.043
755.0	0.041
757.5	0.038
760.0	0.038
762.5	0.042
765.0	0.042
767.5	0.039
770.0	0.043
772.5	0.042
775.0	0.040
777.5	0.041
780.0	0.043
782.5	0.040
785.0	0.040
787.5	0.041
790.0	0.042
792.5	0.043
795.0	0.038
797.5	0.036
800.0	0.040
802.5	0.038
805.0	0.035
807.5	0.037
810.0	0.038
812.5	0.040
815.0	0.040
817.5	0.037
820.0	0.039
822.5	0.041
825.0	0.038
827.5	0.038
830.0	0.036
832.5	0.036
835.0	0.036
837.5	0.037
840.0	0.039
842.5	0.039
845.0	0.037
847.5	0.041
850.0	0.037