Folder: mmcpd-p19638/analysis-scripts/crystal_redox_state

Note: README.md
# mmcpd-scripts
misc code for PL mmCPD project

File: pl mmcpd 1july22 1758h.tsv
7/1/2022 7:15 PM
Wavelength (nm)	10mm Absorbance
//WLCalib: Shift 	0.02667
//WLCalib: 261S 	-0.20000
//WLCalib: 362S 	-0.07000
//WLCalib: 484S 	0.20000
//WLCalib: 529S 	0.26000
//WLCalib: 823S 	-0.41000
//QSpecEnd:
190.0	0.559
192.5	0.538
195.0	0.523
197.5	0.379
200.0	0.357
202.5	0.413
205.0	0.822
207.5	1.185
210.0	1.443
212.5	1.648
215.0	1.790
217.5	1.900
220.0	1.986
222.5	2.073
225.0	2.198
227.5	2.539
230.0	2.795
232.5	2.669
235.0	2.614
237.5	2.558
240.0	2.534
242.5	2.711
245.0	2.657
247.5	2.835
250.0	2.704
252.5	2.662
255.0	2.537
257.5	2.529
260.0	2.729
262.5	2.586
265.0	2.409
267.5	2.453
270.0	2.487
272.5	2.646
275.0	2.616
277.5	2.649
280.0	2.641
282.5	2.730
285.0	2.695
287.5	2.685
290.0	2.630
292.5	2.635
295.0	2.108
297.5	1.478
300.0	1.061
302.5	0.775
305.0	0.576
307.5	0.439
310.0	0.356
312.5	0.307
315.0	0.276
317.5	0.253
320.0	0.237
322.5	0.226
325.0	0.219
327.5	0.213
330.0	0.210
332.5	0.209
335.0	0.209
337.5	0.212
340.0	0.215
342.5	0.217
345.0	0.222
347.5	0.225
350.0	0.228
352.5	0.232
355.0	0.235
357.5	0.238
360.0	0.240
362.5	0.242
365.0	0.241
367.5	0.239
370.0	0.236
372.5	0.233
375.0	0.228
377.5	0.225
380.0	0.218
382.5	0.211
385.0	0.205
387.5	0.197
390.0	0.189
392.5	0.181
395.0	0.172
397.5	0.163
400.0	0.156
402.5	0.150
405.0	0.144
407.5	0.138
410.0	0.133
412.5	0.128
415.0	0.124
417.5	0.120
420.0	0.117
422.5	0.114
425.0	0.111
427.5	0.106
430.0	0.103
432.5	0.098
435.0	0.096
437.5	0.093
440.0	0.091
442.5	0.088
445.0	0.086
447.5	0.083
450.0	0.080
452.5	0.078
455.0	0.076
457.5	0.073
460.0	0.072
462.5	0.070
465.0	0.066
467.5	0.065
470.0	0.064
472.5	0.062
475.0	0.061
477.5	0.059
480.0	0.058
482.5	0.058
485.0	0.058
487.5	0.058
490.0	0.056
492.5	0.055
495.0	0.053
497.5	0.052
500.0	0.051
502.5	0.050
505.0	0.049
507.5	0.049
510.0	0.047
512.5	0.047
515.0	0.046
517.5	0.046
520.0	0.045
522.5	0.044
525.0	0.044
527.5	0.045
530.0	0.044
532.5	0.041
535.0	0.041
537.5	0.040
540.0	0.040
542.5	0.041
545.0	0.040
547.5	0.039
550.0	0.037
552.5	0.038
555.0	0.037
557.5	0.036
560.0	0.034
562.5	0.037
565.0	0.036
567.5	0.036
570.0	0.037
572.5	0.036
575.0	0.036
577.5	0.035
580.0	0.035
582.5	0.035
585.0	0.034
587.5	0.034
590.0	0.035
592.5	0.034
595.0	0.033
597.5	0.034
600.0	0.032
602.5	0.032
605.0	0.032
607.5	0.032
610.0	0.031
612.5	0.031
615.0	0.030
617.5	0.029
620.0	0.030
622.5	0.027
625.0	0.029
627.5	0.030
630.0	0.028
632.5	0.028
635.0	0.027
637.5	0.026
640.0	0.026
642.5	0.025
645.0	0.023
647.5	0.025
650.0	0.022
652.5	0.020
655.0	0.022
657.5	0.021
660.0	0.020
662.5	0.016
665.0	0.018
667.5	0.014
670.0	0.014
672.5	0.012
675.0	0.012
677.5	0.011
680.0	0.012
682.5	0.010
685.0	0.009
687.5	0.008
690.0	0.007
692.5	0.007
695.0	0.007
697.5	0.007
700.0	0.006
702.5	0.006
705.0	0.004
707.5	0.005
710.0	0.005
712.5	0.004
715.0	0.006
717.5	0.006
720.0	0.004
722.5	0.003
725.0	0.003
727.5	0.002
730.0	0.004
732.5	0.001
735.0	0.000
737.5	0.002
740.0	0.002
742.5	0.002
745.0	0.002
747.5	0.000
750.0	0.000
752.5	0.001
755.0	0.001
757.5	0.001
760.0	0.000
762.5	0.000
765.0	-0.001
767.5	0.000
770.0	-0.001
772.5	-0.004
775.0	-0.003
777.5	-0.004
780.0	-0.001
782.5	-0.002
785.0	0.000
787.5	-0.002
790.0	-0.003
792.5	-0.001
795.0	0.001
797.5	-0.003
800.0	-0.001
802.5	-0.004
805.0	-0.005
807.5	-0.003
810.0	-0.002
812.5	-0.004
815.0	-0.004
817.5	-0.004
820.0	-0.005
822.5	-0.002
825.0	-0.004
827.5	-0.004
830.0	-0.005
832.5	-0.007
835.0	-0.004
837.5	-0.003
840.0	-0.005
842.5	-0.007
845.0	-0.008
847.5	-0.003
850.0	-0.009